onset	duration	onset_sample	trial_num	player1_resp	player1_rt	player2_resp	player2_rt	outcome
420.7783203125	5	861754	1	2	0.025	1	1.308	2
425.77001953125	5	871977	2	3	1.51	1	1.11	3
430.77001953125	5	882217	3	3	1.919	1	0.719	3
435.77001953125	5	892457	4	1	1.452	2	0.719	3
440.76953125	5	902696	5	3	0.677	1	0.769	3
445.76953125	5	912936	6	2	1.111	3	0.785	3
450.76953125	5	923176	7	2	1.177	1	0.736	2
455.76904296875	5	933415	8	2	0.519	2	1.611	1
460.7607421875	5	943638	9	1	0.51	1	0.793	1
465.75244140625	5	953861	10	2	0.909	2	0.793	1
470.751953125	5	964100	11	2	1.135	2	0.268	1
475.751953125	5	974340	12	2	0.385	3	1.476	3
480.751953125	5	984580	13	1	1.735	1	0.894	1
485.7431640625	5	994802	14	3	1.193	3	1.001	1
490.7431640625	5	1005042	15	1	0.418	1	1.335	1
495.7431640625	5	1015282	16	2	0.235	2	1.226	1
500.7431640625	5	1025522	17	3	0.343	3	1.01	1
505.74267578125	5	1035761	18	1	1.393	2	1.276	3
510.74267578125	5	1046001	19	3	1.477	1	1.486	3
515.74267578125	5	1056241	20	1	0.402	2	1.927	3
520.7421875	5	1066480	21	2	1.519	3	0.977	3
525.7421875	5	1076720	22	2	0.277	1	0.769	2
530.7421875	5	1086960	23	1	1.302	3	1.535	2
535.7421875	5	1097200	24	1	1.302	1	0.544	1
540.7333984375	5	1107422	25	1	1.21	2	1.21	3
545.7333984375	5	1117662	26	1	0.844	2	1.352	3
550.7333984375	5	1127902	27	3	0.469	3	0.994	1
555.724609375	5	1138124	28	1	1.385	1	1.401	1
560.724609375	5	1148364	29	1	0.985	3	1.118	2
565.724609375	5	1158604	30	2	0.211	2	0.844	1
570.7158203125	5	1168826	31	3	0.218	1	1.868	3
575.7158203125	5	1179066	32	3	0.427	3	1.002	1
580.70751953125	5	1189289	33	2	0.576	1	1.451	2
585.70703125	5	1199528	34	1	1.386	1	1.902	1
590.69873046875	5	1209751	35	3	0.384	0	100	2
595.69873046875	5	1219991	36	1	1.969	1	1.252	1
600.68994140625	5	1230213	37	2	0.226	3	1.576	3
605.68994140625	5	1240453	38	2	0.269	1	0.977	2
610.68994140625	5	1250693	39	1	0.26	2	1.869	3
615.68994140625	5	1260933	40	3	0.227	3	1.069	1
651.18017578125	5	1333617	41	2	1.377	2	1.76	1
656.171875	5	1343840	42	1	1.901	1	0.96	1
661.16357421875	5	1354063	43	3	1.518	1	0.709	3
666.1630859375	5	1364302	44	3	0.377	2	1.052	2
671.1630859375	5	1374542	45	2	1.294	1	1.435	2
676.1630859375	5	1384782	46	1	1.319	2	0.861	3
681.1630859375	5	1395022	47	3	0.961	1	1.594	3
686.16259765625	5	1405261	48	1	1.402	1	1.435	1
691.154296875	5	1415484	49	1	1.276	3	1.168	2
696.154296875	5	1425724	50	1	0.794	3	1.177	2
701.15380859375	5	1435963	51	2	1.185	1	1.194	2
706.15380859375	5	1446203	52	1	0.711	1	0.786	1
711.1455078125	5	1456426	53	3	1.951	1	0.518	3
716.14501953125	5	1466665	54	1	1.661	2	0.402	3
721.14501953125	5	1476905	55	1	0.277	1	1.094	1
726.13671875	5	1487128	56	1	0.493	3	0.618	2
731.13671875	5	1497368	57	2	0.536	1	1.294	2
736.13623046875	5	1507607	58	1	0.394	2	0.869	3
741.13623046875	5	1517847	59	3	1.036	2	1.219	2
746.13623046875	5	1528087	60	1	1.235	3	1.635	2
751.1357421875	5	1538326	61	1	1.944	1	0.652	1
756.12744140625	5	1548549	62	3	1.934	1	0.61	3
761.12744140625	5	1558789	63	3	0.344	1	0.385	3
766.126953125	5	1569028	64	2	0.577	2	0.577	1
771.11865234375	5	1579251	65	3	1.61	1	1.193	3
776.11865234375	5	1589491	66	1	0.502	3	0.635	2
781.11865234375	5	1599731	67	1	1.385	1	0.885	1
786.10986328125	5	1609953	68	3	0.301	3	0.659	1
791.10986328125	5	1620193	69	2	0.968	1	0.401	2
796.10986328125	5	1630433	70	0	100	1	0.702	3
801.109375	5	1640672	71	3	0.827	1	0.569	3
806.109375	5	1650912	72	1	0.436	1	0.519	1
811.10107421875	5	1661135	73	3	1.159	3	0.868	1
816.1005859375	5	1671374	74	2	1.293	1	0.485	2
821.1005859375	5	1681614	75	1	1.236	1	0.861	1
826.09228515625	5	1691837	76	2	0.609	3	0.918	3
831.091796875	5	1702076	77	2	0.977	2	0.81	1
836.08349609375	5	1712299	78	1	0.276	3	1.626	2
841.08349609375	5	1722539	79	1	0.877	2	0.885	3
846.08349609375	5	1732779	80	1	0.902	3	1.652	2
890.58203125	5	1823912	81	1	1.035	2	0.711	3
895.58203125	5	1834152	82	1	0.602	2	1.16	3
900.58154296875	5	1844391	83	3	1.194	2	0.602	2
905.58154296875	5	1854631	84	2	1.002	2	1.302	1
910.5732421875	5	1864854	85	3	0.726	1	1.168	3
915.57275390625	5	1875093	86	1	0.569	2	100	3
920.57275390625	5	1885333	87	1	1.527	1	0.977	1
925.564453125	5	1895556	88	2	0.926	3	1.035	3
930.564453125	5	1905796	89	1	0.394	1	1.469	1
935.5556640625	5	1916018	90	3	0.668	1	1.501	3
940.5556640625	5	1926258	91	1	0.361	1	1.01	1
945.54736328125	5	1936481	92	1	1.41	3	0.776	2
950.546875	5	1946720	93	1	1.052	1	1.711	1
955.53857421875	5	1956943	94	3	0.668	2	1.768	2
960.53857421875	5	1967183	95	1	0.961	1	0.444	1
965.52978515625	5	1977405	96	2	0.468	3	1.459	3
970.52978515625	5	1987645	97	1	0.61	2	1.11	3
975.52978515625	5	1997885	98	1	0.91	2	0.361	3
980.529296875	5	2008124	99	1	0.944	1	0.877	1
985.52099609375	5	2018347	100	1	0.801	3	1.709	2
990.52099609375	5	2028587	101	0	100	0	100	1
995.51220703125	5	2038809	102	3	0.609	1	0.268	3
1000.51220703125	5	2049049	103	1	0.335	2	0.735	3
1005.51220703125	5	2059289	104	3	0.469	2	1.194	2
1010.51220703125	5	2069529	105	2	0.219	2	1.269	1
1015.50341796875	5	2079751	106	1	0.785	3	1.126	2
1020.50341796875	5	2089991	107	1	1.085	2	0.686	3
1025.50341796875	5	2100231	108	1	0.427	2	1.177	3
1030.5029296875	5	2110470	109	3	0.385	1	0.769	3
1035.5029296875	5	2120710	110	3	1.119	1	0.727	3
1040.5029296875	5	2130950	111	2	0.21	2	0.411	1
1045.494140625	5	2141172	112	2	1.084	1	1.393	2
1050.494140625	5	2151412	113	1	1.127	3	1.16	2
1055.494140625	5	2161652	114	1	0.827	2	0.336	3
1060.494140625	5	2171892	115	3	1.019	1	1.119	3
1065.49365234375	5	2182131	116	1	0.686	2	0.727	3
1070.49365234375	5	2192371	117	1	1.26	1	0.51	1
1075.4853515625	5	2202594	118	3	0.459	3	1.043	1
1080.48486328125	5	2212833	119	1	0.56	2	0.893	3
1085.48486328125	5	2223073	120	2	1.885	2	0.477	1
1115.71728515625	5	2284989	121	1	0.877	2	1.419	3
1120.71728515625	5	2295229	122	2	1.877	2	0.427	1
1125.708984375	5	2305452	123	1	1.185	1	0.518	1
1130.70849609375	5	2315691	124	3	0.018	1	1.351	3
1135.70849609375	5	2325931	125	2	1.569	2	1.302	1
1140.7001953125	5	2336154	126	0	100	3	0.693	3
1145.69970703125	5	2346393	127	1	1.377	2	0.811	3
1150.69970703125	5	2356633	128	1	1.185	1	0.61	1
1155.69140625	5	2366856	129	3	1.243	3	0.451	1
1160.69091796875	5	2377095	130	3	1.551	3	1.16	1
1165.69091796875	5	2387335	131	1	1.418	2	1.001	3
1170.69091796875	5	2397575	132	1	1.786	1	1.711	1
1175.68212890625	5	2407797	133	2	0.301	3	0.518	3
1180.68212890625	5	2418037	134	1	1.294	1	0.936	1
1185.673828125	5	2428260	135	2	0.435	3	0.81	3
1190.673828125	5	2438500	136	1	1.852	1	0.635	1
1195.6650390625	5	2448722	137	3	0.368	2	0.801	2
1200.6650390625	5	2458962	138	1	0.669	3	0.244	2
1205.6650390625	5	2469202	139	2	0.911	1	0.444	2
1210.66455078125	5	2479441	140	1	1.252	1	1.269	1
1215.65625	5	2489664	141	2	0.8	3	0.408	3
1220.65625	5	2499904	142	1	0.668	2	0.668	3
1225.65576171875	5	2510143	143	3	0.885	1	0.411	3
1230.65576171875	5	2520383	144	0	100	2	0.744	3
1235.65576171875	5	2530623	145	3	0.444	3	0.469	1
1240.64697265625	5	2540845	146	3	1.493	2	1.018	2
1245.64697265625	5	2551085	147	2	0.652	2	0.469	1
1250.638671875	5	2561308	148	3	1.334	2	0.451	2
1255.638671875	5	2571548	149	2	0.685	1	0.935	2
1260.63818359375	5	2581787	150	3	1.044	3	0.702	1
1265.6298828125	5	2592010	151	2	0.618	3	0.326	3
1270.6298828125	5	2602250	152	1	1.269	3	0.477	2
1275.62939453125	5	2612489	153	2	0.469	2	1.986	1
1280.62109375	5	2622712	154	1	1.051	3	0.643	2
1285.62109375	5	2632952	155	2	1.11	1	1.061	2
1290.62060546875	5	2643191	156	1	1.419	2	0.26	3
1295.62060546875	5	2653431	157	2	0.935	1	0.244	2
1300.62060546875	5	2663671	158	3	0.502	2	0.219	2
1305.62060546875	5	2673911	159	2	0.994	3	0.235	3
1310.6201171875	5	2684150	160	2	0.944	1	0.261	2
1346.619140625	5	2757876	161	1	0.977	1	0.985	1
1351.61083984375	5	2768099	162	2	0.451	1	0.218	2
1356.61083984375	5	2778339	163	3	0.452	3	0.369	1
1361.60205078125	5	2788561	164	1	0.418	1	0.676	1
1366.59375	5	2798784	165	3	0.801	2	1.209	2
1371.59375	5	2809024	166	2	1.494	2	0.494	1
1376.5849609375	5	2819246	167	3	0.493	3	0.21	1
1381.5849609375	5	2829486	168	2	1.893	3	0.368	3
1386.5849609375	5	2839726	169	1	0.594	1	1.677	1
1391.576171875	5	2849948	170	3	0.576	2	1.143	2
1396.576171875	5	2860188	171	1	0.661	1	0.644	1
1401.56787109375	5	2870411	172	1	0.384	2	1.101	3
1406.5673828125	5	2880650	173	2	0.344	2	0.344	1
1411.55908203125	5	2890873	174	1	0.434	3	0.634	2
1416.55908203125	5	2901113	175	2	0.577	3	1.044	3
1421.55859375	5	2911352	176	2	0.327	1	0.652	2
1426.55859375	5	2921592	177	1	0.444	3	0.819	2
1431.55859375	5	2931832	178	2	0.894	1	1.61	2
1436.55859375	5	2942072	179	1	0.394	2	0.602	3
1441.55810546875	5	2952311	180	1	1.186	3	0.444	2
1446.55810546875	5	2962551	181	2	1.377	1	0.485	2
1451.55810546875	5	2972791	182	1	0.286	1	0.361	1
1456.54931640625	5	2983013	183	3	0.568	3	0.418	1
1461.54931640625	5	2993253	184	1	0.468	1	0.41	1
1466.541015625	5	3003476	185	3	0.693	1	0.093	3
1471.54052734375	5	3013715	186	2	1.444	1	0.369	2
1476.54052734375	5	3023955	187	2	0.861	1	0.944	2
1481.54052734375	5	3034195	188	2	0.869	1	1.052	2
1486.54052734375	5	3044435	189	3	0.861	1	0.394	3
1491.5400390625	5	3054674	190	3	0.569	2	0.585	2
1496.5400390625	5	3064914	191	1	0.644	1	0.394	1
1501.53173828125	5	3075137	192	3	0.635	1	0.285	3
1506.53125	5	3085376	193	3	1.027	1	0.344	3
1511.53125	5	3095616	194	1	0.727	1	0.344	1
1516.52294921875	5	3105839	195	1	1.268	1	0.41	1
1521.51416015625	5	3116061	196	2	1.059	1	0.459	2
1526.51416015625	5	3126301	197	1	1.027	1	0.36	1
1531.505859375	5	3136524	198	2	0.293	1	0.535	2
1536.50537109375	5	3146763	199	1	0.452	3	1.152	2
1541.50537109375	5	3157003	200	1	1.094	2	0.969	3
1580.75439453125	5	3237385	201	1	0.986	1	0.777	1
1585.74609375	5	3247608	202	3	0.393	2	0.726	2
1590.74560546875	5	3257847	203	2	1.01	3	0.361	3
1595.74560546875	5	3268087	204	1	0.369	1	0.669	1
1600.7373046875	5	3278310	205	2	0.635	2	0.301	1
1605.73681640625	5	3288549	206	1	0.643	3	0.26	2
1610.73681640625	5	3298789	207	1	0.577	2	0.186	3
1615.73681640625	5	3309029	208	1	0.911	1	0.477	1
1620.72802734375	5	3319251	209	3	0.901	3	0.226	1
1625.72802734375	5	3329491	210	2	0.351	1	0.201	2
1630.72802734375	5	3339731	211	3	1.094	2	0.227	2
1635.72802734375	5	3349971	212	1	0.385	3	0.26	2
1640.7275390625	5	3360210	213	2	0.869	1	0.236	2
1645.7275390625	5	3370450	214	1	0.41	2	0.119	3
1650.7275390625	5	3380690	215	3	0.286	1	0.302	3
1655.72705078125	5	3390929	216	2	0.252	2	0.427	1
1660.71875	5	3401152	217	3	0.21	3	0.201	1
1665.71044921875	5	3411375	218	1	0.268	1	0.309	1
1670.7099609375	5	3421614	219	2	0.36	3	100	3
1675.7099609375	5	3431854	220	2	0.919	1	1.152	2
1680.7099609375	5	3442094	221	1	0.919	2	0.494	3
1685.7099609375	5	3452334	222	1	0.835	3	0.26	2
1690.70947265625	5	3462573	223	1	0.977	1	0.186	1
1695.701171875	5	3472796	224	3	0.185	1	0.743	3
1700.701171875	5	3483036	225	3	0.336	1	0.286	3
1705.70068359375	5	3493275	226	2	0.344	2	0.819	1
1710.6923828125	5	3503498	227	2	1.076	3	1.035	3
1715.6923828125	5	3513738	228	2	0.686	1	0.244	2
1720.69189453125	5	3523977	229	3	0.235	1	0.302	3
1725.69189453125	5	3534217	230	2	0.227	3	0.577	3
1730.69189453125	5	3544457	231	2	1.052	2	1.185	1
1735.68310546875	5	3554679	232	1	1.118	1	0.385	1
1740.68310546875	5	3564919	233	3	0.318	1	0.309	3
1745.68310546875	5	3575159	234	2	0.235	2	0.369	1
1750.6748046875	5	3585382	235	3	0.209	1	0.276	3
1755.67431640625	5	3595621	236	3	1.177	1	0.286	3
1760.67431640625	5	3605861	237	2	0.435	3	0.419	3
1765.67431640625	5	3616101	238	1	1.311	1	0.277	1
1770.66552734375	5	3626323	239	1	0.701	1	1.034	1
1775.66552734375	5	3636563	240	3	0.201	3	0.218	1
1814.89794921875	5	3716911	241	2	0.661	1	1.594	2
1819.8974609375	5	3727150	242	3	0.877	1	0.677	3
1824.8974609375	5	3737390	243	0	100	2	0.469	3
1829.8974609375	5	3747630	244	3	1.286	1	0.36	3
1834.8974609375	5	3757870	245	3	0.469	1	0.385	3
1839.89697265625	5	3768109	246	1	0.686	3	0.902	2
1844.89697265625	5	3778349	247	2	1.269	1	0.669	2
1849.89697265625	5	3788589	248	2	0.777	1	0.227	2
1854.896484375	5	3798828	249	1	0.46	3	0.827	2
1859.896484375	5	3809068	250	2	0.961	1	0.319	2
1864.896484375	5	3819308	251	1	0.569	1	0.235	1
1869.8876953125	5	3829530	252	2	1.11	1	0.651	2
1874.8876953125	5	3839770	253	2	1.185	3	0.71	3
1879.8876953125	5	3850010	254	2	0.977	3	0.236	3
1884.8876953125	5	3860250	255	1	0.419	2	0.66	3
1889.88720703125	5	3870489	256	0	100	1	0.569	3
1894.88720703125	5	3880729	257	2	1.427	3	0.71	3
1899.88720703125	5	3890969	258	2	0.994	2	0.277	1
1904.87841796875	5	3901191	259	3	0.768	1	0.276	3
1909.87841796875	5	3911431	260	1	0.519	1	0.219	1
1914.8701171875	5	3921654	261	3	0.401	3	0.243	1
1919.86962890625	5	3931893	262	2	0.418	1	0.435	2
1924.86962890625	5	3942133	263	3	0.827	2	0.577	2
1929.86962890625	5	3952373	264	1	0.535	3	0.71	2
1934.86962890625	5	3962613	265	2	0.652	2	0.844	1
1939.86083984375	5	3972835	266	2	0.868	3	1.785	3
1944.86083984375	5	3983075	267	3	1.702	1	0.21	3
1949.86083984375	5	3993315	268	1	0.552	3	0.702	2
1954.8603515625	5	4003554	269	2	0.461	2	0.952	1
1959.85205078125	5	4013777	270	1	0.618	2	0.768	3
1964.85205078125	5	4024017	271	3	1.536	2	0.286	2
1969.8515625	5	4034256	272	2	0.91	0	100	2
1974.8515625	5	4044496	273	1	0.777	3	0.385	2
1979.8515625	5	4054736	274	2	1.219	3	0.885	3
1984.8515625	5	4064976	275	2	1.335	1	0.519	2
1989.85107421875	5	4075215	276	1	0.202	1	0.686	1
1994.8427734375	5	4085438	277	3	0.793	1	0.393	3
1999.8427734375	5	4095678	278	3	1.227	3	0.227	1
2004.833984375	5	4105900	279	2	1.301	1	0.909	2
2009.833984375	5	4116140	280	2	1.144	3	0.869	3
2159.7548828125	5	4423178	281	1	0.794	1	1.052	1
2164.74658203125	5	4433401	282	1	0.276	1	0.976	1
2169.74609375	5	4443640	283	3	0.193	3	0.959	1
2174.74609375	5	4453880	284	1	0.393	1	0.326	1
2179.74609375	5	4464120	285	3	0.626	1	0.318	3
2184.74560546875	5	4474359	286	3	1.127	1	0.936	3
2189.74560546875	5	4484599	287	1	1.252	1	0.219	1
2194.7373046875	5	4494822	288	1	1.051	3	1.068	2
2199.73681640625	5	4505061	289	2	0.585	1	0.244	2
2204.73681640625	5	4515301	290	1	0.419	2	0.652	3
2209.73681640625	5	4525541	291	2	1.352	3	0.36	3
2214.73681640625	5	4535781	292	3	0.902	2	0.344	2
2219.736328125	5	4546020	293	1	0.51	2	1.21	3
2224.736328125	5	4556260	294	2	0.835	3	0.094	3
2229.736328125	5	4566500	295	1	0.244	1	0.31	1
2234.7275390625	5	4576722	296	2	0.235	1	0.193	2
2239.7275390625	5	4586962	297	3	0.202	2	0.486	2
2244.7275390625	5	4597202	298	2	0.26	1	0.194	2
2249.7275390625	5	4607442	299	3	0.552	3	0.244	1
2254.71875	5	4617664	300	1	0.218	1	0.543	1
2259.71875	5	4627904	301	3	0.276	1	1.334	3
2264.71875	5	4638144	302	3	0.46	2	0.61	2
2269.71826171875	5	4648383	303	1	1.21	1	0.361	1
2274.7099609375	5	4658606	304	2	0.951	1	0.26	2
2279.7099609375	5	4668846	305	3	0.585	1	0.36	3
2284.70947265625	5	4679085	306	2	0.794	3	0.352	3
2289.70947265625	5	4689325	307	2	1.135	2	0.26	1
2294.701171875	5	4699548	308	1	0.185	2	0.385	3
2299.70068359375	5	4709787	309	3	0.827	3	0.286	1
2304.6923828125	5	4720010	310	1	0.251	1	0.276	1
2309.6923828125	5	4730250	311	2	0.276	3	0.359	3
2314.6923828125	5	4740490	312	1	0.552	2	0.427	3
2319.69189453125	5	4750729	313	1	0.869	3	0.444	2
2324.69189453125	5	4760969	314	2	0.669	1	0.302	2
2329.69189453125	5	4771209	315	2	0.569	1	0.735	2
2334.69140625	5	4781448	316	3	0.194	3	0.244	1
2339.68310546875	5	4791671	317	2	0.709	3	0.61	3
2344.68310546875	5	4801911	318	3	1.26	3	0.26	1
2349.67431640625	5	4812133	319	2	0.226	2	0.735	1
2354.67431640625	5	4822373	320	3	0.685	1	0.551	3
2385.68994140625	5	4885893	321	1	0.86	2	0.377	3
2390.68994140625	5	4896133	322	1	0.936	2	0.377	3
2395.68994140625	5	4906373	323	1	0.652	1	0.902	1
2400.681640625	5	4916596	324	2	0.976	2	0.343	1
2405.68115234375	5	4926835	325	3	0.576	2	0.318	2
2410.68115234375	5	4937075	326	1	0.469	1	0.352	1
2415.6728515625	5	4947298	327	1	0.718	1	0.334	1
2420.67236328125	5	4957537	328	3	0.285	3	0.31	1
2425.67236328125	5	4967777	329	1	1.11	3	0.726	2
2430.67236328125	5	4978017	330	2	0.877	2	0.786	1
2435.66357421875	5	4988239	331	3	0.76	2	0.243	2
2440.66357421875	5	4998479	332	1	0.469	1	0.41	1
2445.6552734375	5	5008702	333	1	0.301	3	0.601	2
2450.65478515625	5	5018941	334	1	0.835	1	0.635	1
2455.646484375	5	5029164	335	3	0.71	2	0.885	2
2460.646484375	5	5039404	336	1	0.552	3	0.402	2
2465.646484375	5	5049644	337	1	0.569	1	0.677	1
2470.6376953125	5	5059866	338	3	0.451	1	0.518	3
2475.6376953125	5	5070106	339	2	0.927	3	0.277	3
2480.6376953125	5	5080346	340	2	1.069	1	0.752	2
2485.63720703125	5	5090585	341	1	0.352	1	0.66	1
2490.62890625	5	5100808	342	2	0.559	1	0.234	2
2495.62890625	5	5111048	343	1	0.327	1	0.302	1
2500.6201171875	5	5121270	344	3	0.784	1	0.301	3
2505.6201171875	5	5131510	345	2	0.76	1	0.252	2
2510.6201171875	5	5141750	346	2	0.494	1	0.227	2
2515.6201171875	5	5151990	347	1	1.219	2	0.669	3
2520.61962890625	5	5162229	348	3	0.86	1	1.319	3
2525.61962890625	5	5172469	349	2	0.602	2	0.594	1
2530.611328125	5	5182692	350	3	0.793	3	0.751	1
2535.61083984375	5	5192931	351	1	0.934	1	0.393	1
2540.61083984375	5	5203171	352	2	0.268	1	0.309	2
2545.61083984375	5	5213411	353	1	0.51	1	0.085	1
2550.60205078125	5	5223633	354	3	0.793	2	0.276	2
2555.60205078125	5	5233873	355	1	0.769	1	0.477	1
2560.59375	5	5244096	356	3	0.251	1	0.343	3
2565.59326171875	5	5254335	357	2	0.477	2	1.144	1
2570.5849609375	5	5264558	358	3	0.885	2	0.301	2
2575.5849609375	5	5274798	359	1	0.294	1	0.277	1
2580.576171875	5	5285020	360	2	0.917	1	0.301	2
2601.66748046875	5	5328215	361	1	0.719	1	1.569	1
2606.6591796875	5	5338438	362	3	0.609	2	0.684	2
2611.65869140625	5	5348677	363	1	0.552	2	0.352	3
2616.65869140625	5	5358917	364	3	0.444	1	0.219	3
2621.65869140625	5	5369157	365	3	0.41	1	0.277	3
2626.658203125	5	5379396	366	2	0.461	1	0.202	2
2631.658203125	5	5389636	367	2	1.252	1	0.452	2
2636.658203125	5	5399876	368	3	0.561	1	0.236	3
2641.658203125	5	5410116	369	2	0.602	2	0.71	1
2646.6494140625	5	5420338	370	3	1.06	2	0.693	2
2651.6494140625	5	5430578	371	3	1.285	3	0.294	1
2656.64111328125	5	5440801	372	1	0.609	3	0.268	2
2661.640625	5	5451040	373	1	0.644	3	0.236	2
2666.640625	5	5461280	374	2	0.869	3	0.319	3
2671.640625	5	5471520	375	1	0.544	1	0.311	1
2676.6318359375	5	5481742	376	1	0.943	2	0.501	3
2681.6318359375	5	5491982	377	2	0.219	1	0.585	2
2686.6318359375	5	5502222	378	1	0.686	1	0.385	1
2691.62353515625	5	5512445	379	1	0.609	2	0.584	3
2696.623046875	5	5522684	380	1	0.902	1	0.336	1
2701.61474609375	5	5532907	381	2	0.676	1	0.226	2
2706.61474609375	5	5543147	382	2	0.777	2	0.352	1
2711.60595703125	5	5553369	383	2	1.209	2	0.277	1
2716.60595703125	5	5563609	384	1	0.659	2	0.468	3
2721.60595703125	5	5573849	385	1	0.794	1	0.444	1
2726.59716796875	5	5584071	386	1	0.718	1	0.018	1
2731.59716796875	5	5594311	387	2	0.385	3	0.518	3
2736.59716796875	5	5604551	388	1	0.686	2	0.619	3
2741.5966796875	5	5614790	389	1	0.344	1	0.361	1
2746.58837890625	5	5625013	390	3	1.018	1	0.343	3
2751.58837890625	5	5635253	391	2	0.46	3	0.444	3
2756.58837890625	5	5645493	392	1	0.627	2	0.427	3
2761.587890625	5	5655732	393	1	0.385	1	0.302	1
2766.57958984375	5	5665955	394	3	1.268	1	0.501	3
2771.57958984375	5	5676195	395	1	0.452	2	0.419	3
2776.5791015625	5	5686434	396	1	0.619	3	0.419	2
2781.5791015625	5	5696674	397	1	0.644	3	0.277	2
2786.5791015625	5	5706914	398	2	1.11	2	0.377	1
2791.5703125	5	5717136	399	1	0.893	3	0.459	2
2796.5703125	5	5727376	400	1	0.569	1	0.402	1
2828.32763671875	5	5792415	401	1	0.885	3	0.677	2
2833.32763671875	5	5802655	402	2	1.602	1	0.536	2
2838.32763671875	5	5812895	403	3	1.019	2	0.277	2
2843.32763671875	5	5823135	404	1	1.794	1	0.51	1
2848.31884765625	5	5833357	405	2	1.376	1	0.285	2
2853.31884765625	5	5843597	406	1	1.21	3	1.127	2
2858.31884765625	5	5853837	407	2	0.352	2	0.827	1
2863.31005859375	5	5864059	408	3	0.751	1	0.359	3
2868.31005859375	5	5874299	409	1	1.469	3	0.427	2
2873.31005859375	5	5884539	410	2	0.427	1	0.269	2
2878.3095703125	5	5894778	411	1	1.252	1	0.419	1
2883.30126953125	5	5905001	412	1	0.409	1	0.243	1
2888.30126953125	5	5915241	413	3	0.334	3	0.426	1
2893.30078125	5	5925480	414	1	0.751	2	0.285	3
2898.30078125	5	5935720	415	1	1.002	3	0.335	2
2903.30078125	5	5945960	416	2	0.452	1	0.402	2
2908.30078125	5	5956200	417	2	1.327	1	0.544	2
2913.30029296875	5	5966439	418	3	0.385	1	0.527	3
2918.30029296875	5	5976679	419	2	0.977	3	0.26	3
2923.30029296875	5	5986919	420	2	0.569	1	0.436	2
2928.2998046875	5	5997158	421	3	0.202	3	0.619	1
2933.29150390625	5	6007381	422	1	0.31	1	0.326	1
2938.283203125	5	6017604	423	2	0.526	1	0.501	2
2943.28271484375	5	6027843	424	2	1.119	1	0.285	2
2948.28271484375	5	6038083	425	1	0.311	1	0.694	1
2953.2744140625	5	6048306	426	3	0.218	2	0.618	2
2958.2744140625	5	6058546	427	1	1.427	1	0.686	1
2963.265625	5	6068768	428	2	0.743	1	0.493	2
2968.265625	5	6079008	429	1	0.26	3	0.627	2
2973.265625	5	6089248	430	2	0.669	3	0.419	3
2978.26513671875	5	6099487	431	2	0.535	2	1.719	1
2983.2568359375	5	6109710	432	1	0.518	1	0.693	1
2988.2568359375	5	6119950	433	3	0.293	2	0.185	2
2993.25634765625	5	6130189	434	1	0.502	1	0.802	1
2998.248046875	5	6140412	435	1	0.559	3	0.643	2
3003.248046875	5	6150652	436	2	0.452	2	1.369	1
3008.2392578125	5	6160874	437	1	0.201	2	0.543	3
3013.2392578125	5	6171114	438	1	0.619	3	0.794	2
3018.2392578125	5	6181354	439	3	0.644	3	0.311	1
3023.23046875	5	6191576	440	2	0.851	1	0.46	2
3043.03857421875	5	6232143	441	1	0.936	2	0.969	3
3048.03857421875	5	6242383	442	1	0.819	2	0.811	3
3053.0380859375	5	6252622	443	3	0.402	1	0.277	3
3058.0380859375	5	6262862	444	3	1.144	2	0.285	2
3063.0380859375	5	6273102	445	1	0.644	3	0.352	2
3068.03759765625	5	6283341	446	2	0.411	2	0.652	1
3073.029296875	5	6293564	447	1	0.251	1	0.393	1
3078.029296875	5	6303804	448	3	0.251	3	0.46	1
3083.02880859375	5	6314043	449	2	0.293	2	0.251	1
3088.02880859375	5	6324283	450	1	0.443	2	1.41	3
3093.02880859375	5	6334523	451	2	1.236	1	1.444	2
3098.02880859375	5	6344763	452	3	0.785	0	100	2
3103.0283203125	5	6355002	453	2	0.877	3	1.036	3
3108.0283203125	5	6365242	454	3	1.277	2	0.51	2
3113.0283203125	5	6375482	455	2	0.452	0	100	2
3118.02783203125	5	6385721	456	1	1.11	2	0.435	3
3123.02783203125	5	6395961	457	2	0.402	1	0.686	2
3128.02783203125	5	6406201	458	2	0.619	1	0.969	2
3133.02783203125	5	6416441	459	3	0.344	3	1.71	1
3138.01904296875	5	6426663	460	1	0.568	1	1.151	1
3143.01904296875	5	6436903	461	2	0.826	3	1.026	3
3148.01904296875	5	6447143	462	1	1.119	1	0.844	1
3153.01025390625	5	6457365	463	2	0.285	2	1.093	1
3158.01025390625	5	6467605	464	3	0.518	1	0.576	3
3163.01025390625	5	6477845	465	2	0.535	2	0.377	1
3168.00146484375	5	6488067	466	2	0.951	1	0.251	2
3173.00146484375	5	6498307	467	3	1.052	3	0.852	1
3177.9931640625	5	6508530	468	2	0.385	3	0.293	3
3182.99267578125	5	6518769	469	1	0.369	2	0.385	3
3187.99267578125	5	6529009	470	2	0.752	2	0.469	1
3192.984375	5	6539232	471	1	0.66	1	0.226	1
3197.984375	5	6549472	472	1	0.66	1	0.26	1
3202.98388671875	5	6559711	473	3	0.268	1	1.093	3
3207.98388671875	5	6569951	474	2	1.177	3	0.536	3
3212.98388671875	5	6580191	475	2	1.152	2	0.51	1
3217.97509765625	5	6590413	476	2	1.01	3	0.518	3
3222.97509765625	5	6600653	477	1	0.661	2	0.361	3
3227.97509765625	5	6610893	478	1	1.752	1	1.194	1
3232.96630859375	5	6621115	479	3	0.551	3	0.768	1
3237.96630859375	5	6631355	480	2	0.427	2	0.61	1
